Folder: phunky_physics/Physics/Labs/em_induction

File: laminated_copper.txt
Frequency (kHz), R3 (kOhms), r (kOhms), Capacitance (pF), R2 (kOhms) NOTE: R4 = 9.9960 kOhms
0.1, 0.1702, 1.2166, 1025.4, 0.0993
0.2, 0.1700, 1.2350, 1025.4, 0.0993
0.5, 0.1712, 1.2364,  1025.4, 0.0993
1, 0.1749, 1.2279, 1025.4, 0.0993
2, 0.1895, 1.1916, 1025.4, 0.0993
5, 0.2702, 0.9822, 1025.4, 0.0993
10, 0.4221, 0.6067, 1025.4, 0.0993
20, 0.6164, 0.2050, 1025.4, 0.0993
50, 0.9866, 0.2406, 518.1, 0.0993
100, 1.6161, 0.4856, 218.6, 0.0993

File: laminated_steel.txt
Frequency (kHz), R3 (kOhms), r (kOhms), Capacitance (pF), R2 (kOhms) NOTE: R4 = 9.9960 kOhms
0.1,0.29528,2.1367,0.98867,45.50
0.2,0.52795,1.7065,0.98849,45.50
0.5,1.4435,6.3847,0.98827,9.557
1,2.7984,2.6648,0.98796,9.557
2,4.0113,9.4098,0.10828,2.031
5,6.2198,2.3716,0.11002,2.031
10,8.8858,2.5249,0.109943,1025.4
20,9.8743,2.0953,0.14050,518.1
50,1.2270,0.20521,1.0519,518.1

File: solid_copper.txt
Frequency (kHz), R3 (kOhms), r (kOhms), Capacitance (pF), R2 (kOhms) NOTE: R4 = 9.9960 kOhms
0.1, 0.1685, 1.1675, 1025.4, 0.0993
0.2, 0.1695, 1.1594, 1025.4, 0.0993
0.5, 0.1765, 1.0505, 1025.4, 0.0993
1, 0.1911, 0.8567, 1025.4, 0.0993
2, 0.2107, 0.6381, 1025.4, 0.0993
5, 0.2455, 0.4365, 1025.4, 0.0993
10, 0.2895, 0.3090, 1025.4, 0.0993
20, 0.3626, 0.1772, 1025.4, 0.0993
50, 0.5917, 0.2881, 518.1, 0.0993
100, 0.6922, 0.0869, 518.1, 0.0993

File: solid_steel.txt
Frequency (kHz), R3 (kOhms), r (kOhms), Capacitance (pF), R2 (kOhms) NOTE: R4 = 9.9960 kOhms
0.1, 0.0388, 6.1057, 1025.4, 0.9996
0.2, 0.0570, 4.1284, 1025.4, 0.0004
0.5, 0.0884, 2.5482, 1025.4, 1.0033
1, 0.1252, 1.7561, 1025.4, 1.0033
2, 0.1770, 1.1620, 1025.4, 1.0032
5, 0.2803, 0.5731, 1025.4, 1.0032
10, 0.3953, 0.2155, 1025.4, 1.0032
20, 0.55230, 0.2658, 1025.4, 1.0032
50, 0.8485, 0.2425, 1025.4, 1.0078
100, 1.1529, 0.0643, 1025.4, 1.0082